Folder: GraduationProject/论文/tga txt new

Note: README.md
# GraduationProject
2017年6月毕业设计相关文件，高分子材料与工程专业。
以此留念！

File: 10%5mm.txt
Filename:	D:\TGAdata\„∆√ŒœÈ\Ã∆–°º™\10%5mm.t6d

Temperature (°„C)	Weight % (%)
28.12	100.021
28.13	100.035
28.37	100.035
28.98	100.055
30.09	100.080
31.51	100.087
33.13	100.097
34.87	100.118
36.70	100.121
38.58	100.125
40.51	100.132
42.47	100.139
44.45	100.149
46.44	100.156
48.45	100.160
50.47	100.153
52.49	100.149
54.53	100.170
56.57	100.160
58.62	100.170
60.68	100.166
62.73	100.163
64.77	100.142
66.83	100.139
68.88	100.132
70.94	100.139
73.00	100.125
75.06	100.114
77.11	100.125
79.16	100.108
81.22	100.125
83.23	100.114
85.28	100.114
87.30	100.118
89.35	100.111
91.41	100.118
93.44	100.080
95.48	100.080
97.54	100.083
99.61	100.097
101.66	100.083
103.70	100.069
105.73	100.087
107.73	100.063
109.71	100.087
111.67	100.063
113.63	100.063
115.57	100.059
117.51	100.059
119.44	100.083
121.37	100.049
123.30	100.049
125.28	100.049
127.24	100.035
129.21	100.028
131.18	100.031
133.13	100.024
135.10	100.028
137.05	100.014
139.01	100.007
140.97	100.003
142.91	99.986
144.84	100.003
146.78	100.000
148.71	99.983
150.65	99.986
152.58	99.976
154.51	99.976
156.44	99.965
158.37	99.969
160.29	99.955
162.21	99.958
164.13	99.955
166.06	99.945
167.98	99.927
169.90	99.934
171.82	99.945
173.75	99.920
175.69	99.924
177.63	99.910
179.61	99.910
181.58	99.892
183.58	99.889
185.57	99.885
187.56	99.882
189.54	99.879
191.52	99.872
193.49	99.854
195.47	99.865
197.44	99.858
199.41	99.844
201.40	99.847
203.37	99.840
205.34	99.844
207.31	99.844
209.30	99.823
211.29	99.809
213.26	99.806
215.25	99.809
217.23	99.806
219.23	99.802
221.22	99.802
223.20	99.785
225.17	99.795
227.13	99.778
229.10	99.771
231.08	99.768
233.06	99.778
235.03	99.754
237.01	99.757
239.00	99.754
240.97	99.743
242.96	99.736
244.94	99.726
246.94	99.733
248.93	99.719
250.93	99.702
252.94	99.691
254.94	99.681
256.94	99.667
258.90	99.670
260.85	99.646
262.78	99.639
264.72	99.625
266.66	99.622
268.60	99.605
270.56	99.587
272.51	99.563
274.45	99.556
276.39	99.525
278.31	99.507
280.23	99.473
282.16	99.442
284.09	99.421
286.04	99.390
287.98	99.355
289.92	99.337
291.84	99.330
293.78	99.282
295.72	99.258
297.67	99.219
299.62	99.192
301.59	99.161
303.59	99.115
305.60	99.077
307.60	99.043
309.59	99.011
311.61	98.956
313.61	98.900
315.62	98.845
317.63	98.789
319.64	98.737
321.64	98.675
323.64	98.609
325.65	98.543
327.64	98.453
329.63	98.356
331.63	98.252
333.62	98.141
335.63	97.995
337.62	97.842
339.64	97.683
341.65	97.492
343.67	97.305
345.68	97.086
347.69	96.850
349.71	96.604
351.73	96.316
353.76	96.018
355.79	95.688
357.83	95.314
359.86	94.915
361.87	94.495
363.88	94.030
365.88	93.531
367.86	93.007
369.83	92.441
371.80	91.859
373.77	91.234
375.74	90.596
377.72	89.954
379.69	89.274
381.66	88.560
383.64	87.831
385.61	87.065
387.59	86.218
389.58	85.323
391.58	84.373
393.59	83.336
395.57	82.201
397.56	80.987
399.56	79.676
401.56	78.278
403.53	76.825
405.50	75.271
407.46	73.623
409.43	71.888
411.41	70.078
413.38	68.166
415.33	66.179
417.29	64.087
419.27	61.915
421.24	59.664
423.24	57.305
425.24	54.881
427.21	52.355
429.19	49.754
431.15	47.086
433.12	44.367
435.10	41.592
437.10	38.789
439.10	35.986
441.09	33.169
443.08	30.366
445.08	27.602
447.08	24.913
449.07	22.312
451.06	19.814
453.08	17.473
455.09	15.329
457.12	13.365
459.15	11.596
461.21	10.112
463.26	8.853
465.30	7.795
467.31	6.927
469.34	6.195
471.39	5.533
473.43	4.992
475.46	4.513
477.48	4.107
479.52	3.767
481.53	3.521
483.53	3.375
485.54	3.306
487.56	3.271
489.56	3.243
491.56	3.205
493.56	3.174
495.57	3.143
497.58	3.112
499.60	3.066
501.64	3.046
503.68	3.008
505.70	2.969
507.71	2.907
509.69	2.872
511.67	2.841
513.67	2.792
515.66	2.747
517.65	2.709
519.62	2.685
521.60	2.636
523.57	2.609
525.56	2.588
527.56	2.553
529.58	2.518
531.58	2.480
533.59	2.442
535.57	2.390
537.56	2.362
539.56	2.338
541.57	2.303
543.57	2.255
545.54	2.224
547.55	2.203
549.56	2.164
551.55	2.123
553.56	2.095
555.58	2.054
557.59	2.015
559.58	1.984
561.59	1.953
563.61	1.918
565.65	1.877
567.65	1.825
569.67	1.776
571.68	1.735
573.67	1.696
575.66	1.658
577.66	1.617
579.74	1.578
581.82	1.561
583.86	1.523
585.94	1.495
587.70	1.460

File: 10%10mm.txt
Filename:	D:\TGAdata\„∆√ŒœÈ\Ã∆–°º™\10%10mm.t6d

Temperature (°„C)	Weight % (%)
28.91	100.003
28.91	100.019
29.03	100.036
29.48	100.081
30.44	100.100
31.77	100.107
33.32	100.110
35.03	100.103
36.82	100.110
38.69	100.103
40.60	100.103
42.55	100.120
44.52	100.120
46.50	100.110
48.50	100.120
50.52	100.113
52.55	100.103
54.59	100.110
56.64	100.097
58.67	100.094
60.70	100.094
62.76	100.087
64.83	100.074
66.89	100.074
68.95	100.071
71.01	100.061
73.06	100.058
75.11	100.055
77.16	100.048
79.21	100.048
81.25	100.032
83.29	100.042
85.34	100.029
87.40	100.010
89.45	100.010
91.50	100.010
93.55	100.000
95.60	100.003
97.66	100.003
99.71	99.987
101.76	99.987
103.82	99.990
105.87	99.981
107.88	99.964
109.87	99.958
111.84	99.971
113.79	99.948
115.73	99.935
117.66	99.935
119.58	99.919
121.50	99.922
123.44	99.922
125.41	99.893
127.38	99.887
129.33	99.881
131.28	99.900
133.24	99.887
135.20	99.881
137.15	99.864
139.09	99.861
141.03	99.848
142.96	99.848
144.89	99.832
146.82	99.842
148.76	99.842
150.68	99.819
152.60	99.809
154.53	99.800
156.47	99.813
158.40	99.803
160.32	99.806
162.23	99.797
164.16	99.784
166.08	99.771
167.99	99.774
169.91	99.771
171.83	99.755
173.76	99.742
175.69	99.745
177.63	99.748
179.61	99.735
181.58	99.732
183.56	99.725
185.56	99.716
187.55	99.719
189.53	99.709
191.51	99.700
193.50	99.700
195.48	99.700
197.46	99.716
199.44	99.690
201.43	99.709
203.41	99.690
205.39	99.693
207.36	99.700
209.33	99.687
211.31	99.690
213.32	99.680
215.31	99.677
217.31	99.674
219.29	99.687
221.30	99.680
223.28	99.661
225.25	99.671
227.23	99.664
229.20	99.651
231.17	99.635
233.15	99.638
235.16	99.638
237.16	99.638
239.15	99.619
241.13	99.625
243.11	99.616
245.10	99.603
247.11	99.612
249.12	99.599
251.11	99.590
253.09	99.577
255.08	99.570
257.07	99.557
259.01	99.545
260.96	99.535
262.90	99.545
264.86	99.519
266.81	99.503
268.76	99.470
270.72	99.460
272.65	99.438
274.59	99.412
276.53	99.396
278.46	99.367
280.37	99.341
282.32	99.315
284.26	99.276
286.20	99.264
288.13	99.234
290.05	99.212
291.97	99.176
293.91	99.150
295.85	99.115
297.80	99.073
299.76	99.041
301.74	99.002
303.75	98.966
305.76	98.934
307.77	98.908
309.78	98.859
311.79	98.808
313.81	98.753
315.86	98.685
317.88	98.637
319.91	98.553
321.92	98.511
323.93	98.423
325.93	98.326
327.92	98.236
329.92	98.126
331.94	98.016
333.96	97.884
335.97	97.758
337.97	97.603
339.98	97.425
342.00	97.222
344.02	97.011
346.02	96.766
348.05	96.537
350.08	96.265
352.12	95.974
354.15	95.661
356.17	95.319
358.21	94.937
360.22	94.524
362.25	94.097
364.26	93.632
366.28	93.144
368.27	92.614
370.27	92.065
372.24	91.474
374.22	90.880
376.22	90.237
378.21	89.581
380.18	88.918
382.15	88.214
384.12	87.471
386.10	86.708
388.08	85.897
390.07	85.035
392.05	84.117
394.03	83.129
396.01	82.062
398.01	80.945
400.00	79.730
401.99	78.444
404.00	77.074
405.97	75.617
407.95	74.076
409.92	72.467
411.89	70.787
413.87	69.000
415.86	67.159
417.84	65.208
419.81	63.178
421.78	61.040
423.74	58.827
425.70	56.513
427.64	54.103
429.65	51.596
431.63	49.024
433.62	46.362
435.61	43.629
437.59	40.860
439.55	38.069
441.55	35.293
443.54	32.537
445.53	29.843
447.54	27.207
449.54	24.586
451.54	22.060
453.56	19.656
455.57	17.378
457.60	15.285
459.65	13.414
461.68	11.757
463.74	10.348
465.78	9.188
467.81	8.203
469.87	7.382
471.92	6.675
473.96	6.061
475.99	5.531
478.00	5.079
480.04	4.701
482.09	4.378
484.11	4.164
486.13	4.022
488.12	3.941
490.12	3.909
492.12	3.880
494.14	3.867
496.15	3.844
498.17	3.819
500.19	3.783
502.21	3.764
504.23	3.712
506.28	3.667
508.33	3.654
510.33	3.625
512.29	3.589
514.27	3.576
516.27	3.518
518.28	3.496
520.29	3.444
522.27	3.412
524.26	3.379
526.25	3.347
528.21	3.282
530.16	3.234
532.16	3.182
534.17	3.144
536.16	3.118
538.15	3.066
540.16	3.021
542.16	2.969
544.17	2.933
546.15	2.895
548.16	2.843
550.21	2.795
552.23	2.746
554.19	2.694
556.22	2.659
558.21	2.636
560.19	2.597
562.22	2.552
564.24	2.491
566.27	2.462
568.26	2.420
570.32	2.387
572.35	2.342
574.33	2.304
576.33	2.258
578.30	2.223
580.34	2.184
582.40	2.129
584.48	2.093
586.53	2.055
588.26	2.003

File: 15%5mm.txt
Filename:	D:\TGAdata\„∆√ŒœÈ\Ã∆–°º™\15%5mm.t6d

Temperature (°„C)	Weight % (%)
28.11	100.095
28.12	100.103
28.36	100.201
28.99	100.205
30.10	100.236
31.52	100.236
33.15	100.244
34.91	100.264
36.74	100.283
38.63	100.276
40.56	100.358
42.51	100.378
44.50	100.386
46.49	100.417
48.51	100.441
50.54	100.445
52.57	100.456
54.61	100.445
56.64	100.448
58.67	100.464
60.71	100.480
62.74	100.464
64.78	100.448
66.83	100.441
68.88	100.425
70.95	100.401
73.02	100.405
75.09	100.397
77.14	100.405
79.20	100.409
81.25	100.382
83.31	100.374
85.36	100.366
87.41	100.374
89.46	100.370
91.50	100.382
93.55	100.354
95.60	100.327
97.65	100.346
99.70	100.327
101.75	100.319
103.79	100.311
105.82	100.307
107.83	100.303
109.80	100.299
111.76	100.311
113.72	100.287
115.67	100.276
117.61	100.260
119.54	100.256
121.47	100.240
123.40	100.225
125.36	100.221
127.33	100.221
129.30	100.197
131.25	100.197
133.20	100.205
135.14	100.181
137.10	100.166
139.04	100.166
140.98	100.166
142.92	100.138
144.85	100.122
146.79	100.103
148.72	100.114
150.65	100.107
152.57	100.095
154.49	100.095
156.41	100.071
158.32	100.071
160.25	100.060
162.18	100.055
164.09	100.060
166.02	100.075
167.95	100.060
169.88	100.052
171.80	100.052
173.73	100.036
175.69	100.032
177.65	100.020
179.61	100.028
181.59	100.013
183.58	100.013
185.57	100.013
187.54	100.008
189.52	99.989
191.50	99.965
193.47	99.977
195.44	99.981
197.41	99.985
199.39	99.973
201.36	99.961
203.35	99.946
205.33	99.942
207.31	99.946
209.29	99.938
211.27	99.914
213.26	99.934
215.25	99.906
217.24	99.895
219.23	99.898
221.22	99.871
223.20	99.887
225.17	99.875
227.14	99.859
229.11	99.847
231.08	99.851
233.05	99.824
235.04	99.812
237.01	99.792
239.00	99.765
240.99	99.761
242.96	99.738
244.94	99.714
246.94	99.694
248.93	99.675
250.93	99.631
252.92	99.620
254.92	99.596
256.91	99.596
258.88	99.580
260.84	99.557
262.79	99.533
264.73	99.482
266.66	99.447
268.61	99.435
270.54	99.400
272.48	99.384
274.42	99.364
276.35	99.309
278.28	99.270
280.21	99.270
282.14	99.207
284.07	99.164
286.03	99.156
287.97	99.121
289.91	99.082
291.84	99.054
293.79	99.019
295.74	98.979
297.68	98.920
299.63	98.881
301.62	98.807
303.61	98.759
305.62	98.689
307.63	98.634
309.63	98.575
311.64	98.485
313.67	98.406
315.69	98.288
317.70	98.194
319.71	98.072
321.72	97.942
323.71	97.809
325.72	97.648
327.72	97.498
329.73	97.306
331.73	97.117
333.75	96.937
335.76	96.713
337.77	96.505
339.77	96.253
341.77	95.970
343.78	95.656
345.79	95.342
347.81	94.938
349.81	94.521
351.83	94.081
353.83	93.586
355.86	93.040
357.89	92.483
359.93	91.870
361.95	91.186
363.97	90.471
365.98	89.717
367.98	88.888
369.96	88.052
371.93	87.184
373.92	86.276
375.89	85.314
377.86	84.352
379.84	83.401
381.81	82.419
383.78	81.425
385.76	80.436
387.75	79.395
389.73	78.354
391.74	77.277
393.74	76.134
395.72	74.944
397.71	73.668
399.70	72.305
401.68	70.851
403.67	69.319
405.67	67.677
407.65	65.918
409.62	64.075
411.60	62.119
413.57	60.077
415.53	57.920
417.49	55.721
419.44	53.403
421.41	50.987
423.39	48.532
425.36	45.999
427.33	43.410
429.32	40.771
431.31	38.100
433.31	35.441
435.29	32.754
437.28	30.185
439.26	27.612
441.24	25.169
443.24	22.875
445.23	20.742
447.23	18.727
449.26	16.905
451.28	15.310
453.29	13.931
455.34	12.788
457.37	11.857
459.39	11.056
461.43	10.341
463.45	9.716
465.48	9.194
467.53	8.715
469.54	8.287
471.57	7.914
473.60	7.615
475.62	7.364
477.63	7.195
479.64	7.081
481.65	7.034
483.66	7.042
485.66	7.014
487.66	6.963
489.67	6.916
491.71	6.880
493.74	6.849
495.76	6.798
497.78	6.774
499.80	6.735
501.81	6.708
503.82	6.684
505.83	6.645
507.84	6.602
509.83	6.578
511.80	6.539
513.80	6.507
515.78	6.456
517.76	6.421
519.75	6.393
521.76	6.362
523.77	6.319
525.75	6.279
527.73	6.224
529.73	6.181
531.72	6.134
533.73	6.059
535.74	6.044
537.74	5.997
539.73	5.942
541.70	5.883
543.70	5.847
545.73	5.784
547.75	5.749
549.78	5.690
551.80	5.659
553.82	5.608
555.83	5.576
557.84	5.545
559.84	5.466
561.85	5.451
563.86	5.411
565.88	5.352
567.87	5.341
569.88	5.301
571.90	5.254
573.93	5.199
575.97	5.164
577.98	5.121
580.01	5.062
582.08	5.026
584.13	4.987
586.18	4.932
588.25	4.869

File: 20%5mm.txt
Filename:	D:\TGAdata\„∆√ŒœÈ\Ã∆–°º™\20%5mm.t6d

Temperature (°„C)	Weight % (%)
28.30	100.015
28.31	100.009
28.55	100.025
29.16	100.049
30.25	100.043
31.67	100.058
33.29	100.071
35.04	100.068
36.86	100.074
38.75	100.068
40.68	100.074
42.64	100.092
44.62	100.098
46.63	100.092
48.64	100.101
50.65	100.101
52.67	100.098
54.71	100.105
56.76	100.120
58.81	100.111
60.85	100.098
62.88	100.092
64.92	100.089
66.97	100.095
69.03	100.098
71.10	100.098
73.17	100.083
75.24	100.071
77.29	100.064
79.34	100.058
81.39	100.055
83.45	100.046
85.51	100.037
87.57	100.025
89.64	100.028
91.68	100.018
93.72	100.012
95.76	100.006
97.80	100.009
99.85	99.994
101.92	99.985
103.98	99.978
106.03	99.972
108.04	99.972
110.02	99.969
111.97	99.942
113.92	99.926
115.88	99.914
117.84	99.908
119.78	99.883
121.71	99.877
123.63	99.880
125.59	99.868
127.56	99.868
129.53	99.849
131.49	99.831
133.46	99.822
135.41	99.812
137.36	99.788
139.31	99.766
141.25	99.763
143.19	99.766
145.13	99.751
147.08	99.739
149.02	99.742
150.95	99.729
152.90	99.729
154.83	99.708
156.76	99.705
158.68	99.702
160.61	99.677
162.52	99.677
164.45	99.677
166.37	99.671
168.29	99.668
170.21	99.671
172.14	99.665
174.08	99.668
176.04	99.656
178.01	99.653
179.96	99.640
181.91	99.634
183.88	99.616
185.86	99.628
187.84	99.603
189.83	99.619
191.80	99.591
193.78	99.588
195.77	99.585
197.75	99.579
199.73	99.585
201.71	99.576
203.69	99.557
205.68	99.545
207.67	99.542
209.67	99.533
211.65	99.539
213.64	99.530
215.63	99.530
217.63	99.526
219.64	99.505
221.64	99.520
223.61	99.511
225.57	99.484
227.54	99.505
229.51	99.490
231.50	99.480
233.47	99.474
235.45	99.465
237.43	99.443
239.42	99.437
241.40	99.425
243.40	99.422
245.39	99.404
247.38	99.385
249.36	99.367
251.36	99.360
253.34	99.345
255.35	99.314
257.36	99.299
259.34	99.284
261.29	99.271
263.25	99.253
265.19	99.228
267.14	99.195
269.10	99.182
271.06	99.148
272.99	99.127
274.92	99.108
276.85	99.084
278.78	99.068
280.70	99.010
282.62	98.992
284.55	98.970
286.50	98.949
288.43	98.921
290.37	98.912
292.31	98.866
294.25	98.835
296.19	98.810
298.14	98.783
300.09	98.739
302.06	98.693
304.07	98.678
306.07	98.635
308.09	98.577
310.09	98.543
312.11	98.497
314.14	98.444
316.15	98.389
318.18	98.334
320.19	98.251
322.18	98.183
324.17	98.085
326.18	97.986
328.17	97.879
330.17	97.740
332.17	97.608
334.19	97.457
336.18	97.304
338.18	97.119
340.18	96.916
342.22	96.671
344.24	96.428
346.26	96.148
348.29	95.856
350.31	95.524
352.35	95.152
354.39	94.749
356.41	94.285
358.46	93.799
360.49	93.252
362.51	92.665
364.52	92.031
366.54	91.352
368.53	90.632
370.49	89.864
372.46	89.077
374.44	88.244
376.40	87.370
378.38	86.494
380.36	85.578
382.34	84.683
384.32	83.761
386.31	82.845
388.30	81.923
390.28	80.991
392.27	80.066
394.27	79.104
396.29	78.114
398.30	77.068
400.29	75.952
402.29	74.775
404.27	73.502
406.24	72.171
408.22	70.747
410.19	69.232
412.17	67.652
414.13	65.976
416.08	64.208
418.04	62.327
420.01	60.371
422.00	58.299
423.99	56.132
425.96	53.915
427.92	51.576
429.90	49.104
431.87	46.546
433.87	43.924
435.86	41.209
437.85	38.445
439.84	35.632
441.82	32.825
443.82	30.021
445.82	27.285
447.83	24.650
449.81	22.133
451.84	19.747
453.86	17.524
455.88	15.476
457.93	13.592
459.97	11.993
461.99	10.644
464.03	9.546
466.09	8.657
468.12	7.935
470.14	7.336
472.18	6.816
474.23	6.389
476.28	6.044
478.31	5.755
480.34	5.537
482.36	5.392
484.36	5.331
486.36	5.279
488.37	5.239
490.39	5.230
492.39	5.220
494.42	5.190
496.43	5.162
498.45	5.134
500.47	5.094
502.48	5.070
504.50	5.042
506.52	4.999
508.52	4.981
510.48	4.937
512.48	4.913
514.48	4.879
516.46	4.861
518.46	4.821
520.44	4.768
522.38	4.725
524.36	4.692
526.36	4.664
528.35	4.618
530.33	4.590
532.36	4.535
534.35	4.501
536.32	4.455
538.33	4.409
540.35	4.372
542.33	4.338
544.32	4.289
546.31	4.252
548.33	4.206
550.35	4.150
552.34	4.141
554.31	4.086
556.31	4.055
558.33	4.012
560.33	3.963
562.36	3.923
564.39	3.880
566.41	3.834
568.41	3.800
570.42	3.763
572.44	3.708
574.46	3.683
576.49	3.646
578.53	3.612
580.57	3.569
582.63	3.542
584.70	3.489
586.75	3.453
588.47	3.425

File: 20%10mm.txt
Filename:	D:\TGAdata\„∆√ŒœÈ\Ã∆–°º™\20%10mm.t6d

Temperature (°„C)	Weight % (%)
28.38	100.017
28.39	100.027
28.59	100.024
29.15	100.048
30.20	100.041
31.61	100.051
33.21	100.072
34.96	100.051
36.79	100.069
38.67	100.058
40.58	100.048
42.53	100.065
44.52	100.082
46.52	100.062
48.52	100.048
50.54	100.045
52.57	100.034
54.61	100.017
56.65	100.020
58.69	100.024
60.73	99.996
62.77	100.003
64.83	99.993
66.88	99.990
68.92	99.973
70.97	99.959
73.02	99.935
75.08	99.928
77.13	99.921
79.18	99.914
81.23	99.911
83.28	99.880
85.34	99.859
87.39	99.852
89.45	99.849
91.51	99.845
93.56	99.835
95.61	99.831
97.67	99.828
99.73	99.828
101.78	99.821
103.82	99.801
105.86	99.787
107.87	99.783
109.83	99.763
111.78	99.773
113.73	99.766
115.68	99.759
117.62	99.739
119.56	99.742
121.49	99.722
123.43	99.728
125.40	99.722
127.36	99.722
129.33	99.701
131.30	99.704
133.25	99.684
135.20	99.704
137.15	99.690
139.10	99.687
141.04	99.684
142.97	99.677
144.90	99.670
146.84	99.646
148.75	99.639
150.69	99.632
152.60	99.639
154.52	99.622
156.43	99.625
158.36	99.618
160.29	99.625
162.22	99.625
164.13	99.612
166.05	99.615
167.96	99.612
169.87	99.622
171.78	99.615
173.72	99.605
175.69	99.594
177.67	99.591
179.64	99.591
181.62	99.591
183.61	99.584
185.59	99.580
187.58	99.580
189.55	99.577
191.53	99.574
193.51	99.567
195.48	99.556
197.45	99.556
199.42	99.560
201.41	99.567
203.40	99.570
205.39	99.577
207.37	99.560
209.34	99.543
211.32	99.539
213.31	99.543
215.31	99.525
217.29	99.536
219.30	99.539
221.30	99.532
223.28	99.536
225.26	99.529
227.25	99.529
229.22	99.525
231.19	99.522
233.16	99.498
235.13	99.484
237.11	99.484
239.10	99.464
241.09	99.471
243.07	99.460
245.04	99.450
247.03	99.436
249.03	99.433
251.04	99.422
253.03	99.398
255.02	99.398
257.01	99.385
258.97	99.361
260.92	99.336
262.88	99.319
264.84	99.295
266.79	99.268
268.73	99.254
270.68	99.233
272.62	99.202
274.55	99.161
276.47	99.134
278.39	99.110
280.32	99.079
282.25	99.055
284.20	99.020
286.13	98.976
288.07	98.927
289.99	98.893
291.94	98.845
293.89	98.817
295.83	98.793
297.78	98.745
299.72	98.697
301.68	98.666
303.67	98.590
305.68	98.556
307.70	98.494
309.70	98.432
311.73	98.364
313.74	98.298
315.77	98.223
317.79	98.126
319.80	98.027
321.80	97.937
323.81	97.807
325.82	97.680
327.82	97.539
329.82	97.377
331.82	97.202
333.84	97.020
335.85	96.813
337.86	96.580
339.86	96.312
341.89	96.016
343.91	95.727
345.93	95.394
347.93	95.026
349.96	94.620
352.00	94.180
354.03	93.713
356.06	93.204
358.11	92.640
360.16	92.059
362.19	91.444
364.19	90.784
366.20	90.086
368.19	89.340
370.17	88.560
372.16	87.769
374.14	86.958
376.11	86.092
378.09	85.250
380.07	84.380
382.05	83.493
384.06	82.606
386.05	81.702
388.03	80.788
390.03	79.836
392.03	78.846
394.02	77.811
396.00	76.704
398.00	75.521
399.99	74.287
401.97	72.957
403.97	71.541
405.94	70.066
407.90	68.519
409.88	66.870
411.87	65.147
413.85	63.322
415.83	61.418
417.80	59.441
419.75	57.354
421.71	55.185
423.69	52.944
425.66	50.607
427.62	48.187
429.60	45.684
431.59	43.141
433.56	40.549
435.55	37.885
437.54	35.220
439.51	32.539
441.50	29.899
443.49	27.307
445.49	24.733
447.50	22.258
449.52	19.917
451.53	17.693
453.55	15.685
455.58	13.908
457.61	12.351
459.66	11.079
461.70	10.044
463.73	9.168
465.77	8.436
467.79	7.834
469.81	7.353
471.84	6.923
473.89	6.562
475.93	6.260
477.95	6.060
479.98	5.906
481.99	5.854
484.00	5.796
486.03	5.754
488.05	5.741
490.07	5.689
492.10	5.661
494.10	5.624
496.12	5.589
498.15	5.572
500.17	5.531
502.19	5.504
504.21	5.490
506.24	5.428
508.26	5.397
510.24	5.373
512.22	5.335
514.21	5.314
516.21	5.280
518.18	5.225
520.18	5.215
522.16	5.184
524.15	5.139
526.16	5.112
528.12	5.074
530.12	5.015
532.13	4.977
534.11	4.957
536.08	4.919
538.09	4.878
540.10	4.843
542.07	4.799
544.07	4.768
546.08	4.730
548.08	4.689
550.10	4.654
552.10	4.596
554.11	4.565
556.13	4.520
558.11	4.465
560.12	4.438
562.15	4.393
564.15	4.369
566.18	4.324
568.19	4.266
570.21	4.225
572.23	4.187
574.24	4.142
576.27	4.098
578.31	4.060
580.36	4.012
582.40	3.970
584.48	3.929
586.56	3.881
588.30	3.847

File: 30%10mm.txt
Filename:	D:\TGAdata\„∆√ŒœÈ\Ã∆–°º™\30%10mm.t6d

Temperature (°„C)	Weight % (%)
29.79	100.022
29.78	100.045
29.80	100.028
30.11	100.037
30.88	100.057
32.08	100.067
33.56	100.071
35.21	100.061
36.98	100.061
38.83	100.061
40.74	100.063
42.68	100.069
44.65	100.053
46.64	100.059
48.64	100.053
50.64	100.057
52.66	100.053
54.69	100.047
56.73	100.042
58.77	100.034
60.81	100.022
62.86	100.010
64.91	100.010
66.96	100.006
69.03	99.986
71.08	99.978
73.14	99.972
75.21	99.960
77.27	99.947
79.32	99.941
81.37	99.937
83.41	99.927
85.46	99.909
87.52	99.893
89.57	99.893
91.63	99.884
93.69	99.880
95.76	99.876
97.81	99.864
99.86	99.836
101.91	99.832
103.96	99.824
106.02	99.822
108.05	99.805
110.04	99.801
112.00	99.787
113.95	99.777
115.88	99.765
117.82	99.751
119.74	99.735
121.67	99.733
123.59	99.724
125.56	99.706
127.53	99.692
129.49	99.692
131.44	99.678
133.39	99.662
135.35	99.716
137.31	99.652
139.26	99.631
141.21	99.617
143.16	99.615
145.11	99.637
147.06	99.627
148.99	99.585
150.92	99.575
152.84	99.568
154.76	99.554
156.66	99.546
158.58	99.530
160.50	99.526
162.41	99.518
164.33	99.498
166.28	99.487
168.22	99.481
170.14	99.477
172.06	99.459
173.97	99.455
175.92	99.475
177.88	99.502
179.82	99.481
181.77	99.433
183.75	99.421
185.73	99.408
187.72	99.406
189.73	99.396
191.74	99.384
193.74	99.384
195.75	99.378
197.75	99.370
199.74	99.368
201.73	99.366
203.74	99.356
205.73	99.352
207.71	99.346
209.70	99.346
211.69	99.338
213.69	99.338
215.68	99.329
217.66	99.321
219.65	99.321
221.66	99.315
223.63	99.311
225.61	99.313
227.58	99.309
229.56	99.297
231.52	99.289
233.50	99.285
235.50	99.281
237.50	99.277
239.47	99.267
241.46	99.265
243.45	99.252
245.45	99.236
247.45	99.226
249.44	99.218
251.43	99.200
253.44	99.186
255.44	99.171
257.44	99.157
259.40	99.141
261.36	99.121
263.33	99.102
265.27	99.080
267.21	99.054
269.16	99.028
271.13	99.005
273.06	98.983
275.00	98.949
276.95	98.914
278.87	98.870
280.80	98.833
282.74	98.874
284.68	98.831
286.65	98.732
288.60	98.673
290.56	98.628
292.51	98.574
294.48	98.521
296.42	98.474
298.35	98.422
300.29	98.375
302.28	98.323
304.27	98.262
306.29	98.199
308.31	98.140
310.33	98.061
312.33	97.988
314.33	97.911
316.35	97.822
318.37	97.739
320.35	97.644
322.34	97.544
324.34	97.435
326.36	97.322
328.37	97.198
330.37	97.062
332.38	96.917
334.41	96.750
336.44	96.584
338.46	96.406
340.47	96.195
342.49	95.960
344.45	95.691
346.42	95.405
348.40	95.109
350.45	94.781
352.52	94.433
354.56	94.066
356.58	93.669
358.61	93.231
360.67	92.751
362.70	92.227
364.69	91.663
366.71	91.102
368.70	90.482
370.68	89.870
372.64	89.149
374.61	88.428
376.59	87.682
378.55	86.919
380.50	86.135
382.48	85.344
384.46	84.566
386.45	83.782
388.41	83.025
390.40	82.308
392.38	81.613
394.38	80.926
396.37	80.261
398.35	79.583
400.34	78.874
402.32	78.126
404.29	77.332
406.27	76.489
408.23	75.586
410.20	74.633
412.17	73.683
414.14	72.626
416.11	71.432
418.07	70.231
420.04	68.963
422.01	67.619
423.99	66.193
425.97	64.686
427.95	63.108
429.92	61.430
431.88	59.660
433.86	57.790
435.84	55.823
437.79	53.728
439.76	51.509
441.74	49.200
443.71	46.805
445.70	44.307
447.68	41.742
449.66	39.098
451.66	36.396
453.63	33.699
455.62	31.015
457.59	28.357
459.59	25.772
461.61	23.256
463.61	20.835
465.65	18.554
467.70	16.392
469.76	14.433
471.85	12.664
473.95	11.126
476.00	9.816
478.05	8.754
480.13	7.899
482.20	7.180
484.27	6.617
486.32	6.165
488.36	5.812
490.40	5.573
492.43	5.462
494.44	5.395
496.46	5.349
498.49	5.316
500.51	5.282
502.51	5.245
504.54	5.203
506.55	5.170
508.56	5.126
510.57	5.089
512.54	5.053
514.53	5.028
516.52	4.986
518.52	4.955
520.50	4.915
522.49	4.870
524.46	4.834
526.43	4.802
528.41	4.761
530.39	4.718
532.39	4.686
534.37	4.639
536.36	4.609
538.37	4.564
540.36	4.526
542.36	4.496
544.38	4.455
546.38	4.398
548.35	4.386
550.37	4.348
552.41	4.297
554.38	4.267
556.40	4.226
558.44	4.194
560.45	4.145
562.48	4.105
564.49	4.068
566.50	4.032
568.54	3.997
570.56	3.975
572.55	3.932
574.55	3.902
576.59	3.874
578.65	3.835
580.74	3.805
582.82	3.760
584.93	3.722
586.96	3.679
588.70	3.647