Folder: GraduationProject/论文/tga txt new (part 2)

File: chunPP.txt
Filename:	D:\TGAdata\ãÆÃÎÏé\ÌÆÐ¡¼ª\´¿PP.t6d

Temperature (¡ãC)	Weight % (%)
32.61	99.993
32.52	99.977
32.42	100.058
32.62	100.070
33.62	100.102
35.38	100.094
37.54	100.082
39.91	100.082
42.42	100.090
45.01	100.094
47.63	100.078
50.30	100.094
52.98	100.094
55.70	100.086
58.43	100.106
61.16	100.106
63.88	100.106
66.62	100.086
69.38	100.090
72.14	100.078
74.90	100.062
77.65	100.090
80.41	100.078
83.16	100.050
85.89	100.050
88.64	100.025
91.36	100.033
94.10	100.013
96.84	100.005
99.58	100.001
102.32	99.997
105.08	99.985
107.78	99.993
110.43	99.989
113.06	99.997
115.66	99.977
118.25	100.001
120.83	99.977
123.39	99.981
126.03	99.968
128.68	99.989
131.32	99.989
133.94	99.985
136.55	99.981
139.11	99.993
141.69	99.989
144.26	99.977
146.86	99.985
149.44	99.977
152.02	99.993
154.59	99.973
157.16	99.977
159.73	99.997
162.29	99.997
164.86	99.981
167.42	100.001
169.99	99.985
172.56	99.977
175.14	99.989
177.76	99.989
180.41	99.977
183.08	99.960
185.75	99.952
188.38	99.956
191.01	99.973
193.64	99.952
196.29	99.956
198.92	99.944
201.57	99.952
204.23	99.916
206.89	99.916
209.54	99.916
212.21	99.916
214.87	99.920
217.47	99.916
220.17	99.891
222.84	99.875
225.48	99.883
228.11	99.875
230.77	99.875
233.40	99.883
236.04	99.875
238.70	99.859
241.36	99.847
244.01	99.843
246.67	99.843
249.35	99.831
252.01	99.831
254.66	99.806
257.35	99.790
259.96	99.766
262.57	99.766
265.18	99.762
267.78	99.762
270.41	99.758
273.01	99.733
275.57	99.701
278.18	99.709
280.75	99.701
283.34	99.680
285.90	99.680
288.51	99.680
291.08	99.673
293.67	99.664
296.27	99.668
298.85	99.636
301.47	99.628
304.13	99.640
306.80	99.603
309.49	99.587
312.19	99.555
314.89	99.518
317.58	99.490
320.26	99.413
322.95	99.332
325.65	99.263
328.32	99.190
330.99	99.092
333.67	98.991
336.36	98.861
339.05	98.695
341.72	98.476
344.44	98.232
347.15	97.960
349.84	97.636
352.55	97.250
355.24	96.824
357.96	96.334
360.70	95.774
363.40	95.165
366.06	94.480
368.72	93.709
371.38	92.841
374.02	91.875
376.66	90.833
379.31	89.668
381.97	88.427
384.61	87.072
387.26	85.635
389.90	84.061
392.56	82.362
395.21	80.524
397.89	78.536
400.58	76.422
403.24	74.171
405.90	71.822
408.55	69.254
411.18	66.564
413.82	63.712
416.42	60.686
419.06	57.521
421.70	54.199
424.36	50.689
427.00	46.973
429.66	43.046
432.34	38.940
434.99	34.644
437.67	30.218
440.33	25.759
443.02	21.204
445.70	16.761
448.38	12.530
451.06	9.005
453.76	6.570
456.44	4.968
459.16	3.889
461.92	3.199
464.64	2.700
467.36	2.343
470.06	2.096
472.76	1.921
475.43	1.868
478.13	1.840
480.80	1.832
483.44	1.836
486.11	1.812
488.78	1.840
491.43	1.848
494.10	1.864
496.82	1.856
499.53	1.844
502.22	1.816
504.93	1.804
507.63	1.824
510.32	1.820
512.97	1.824
515.63	1.795
518.26	1.795
520.91	1.791
523.57	1.751
526.23	1.783
528.85	1.779
531.51	1.783
534.20	1.771
536.85	1.759
539.51	1.767
542.16	1.795
544.81	1.795
547.48	1.812
550.12	1.783
552.82	1.767
555.49	1.755
558.17	1.759
560.87	1.787
563.52	1.759
566.21	1.734
568.88	1.751
571.54	1.747
574.26	1.743
576.92	1.743
579.61	1.718
582.35	1.734
585.10	1.718
587.84	1.734
590.61	1.730
593.28	1.751
595.99	1.747
598.74	1.743
601.51	1.710
604.24	1.730
607.01	1.710
609.87	1.706
612.60	1.706
615.26	1.718
618.06	1.686
620.76	1.706
623.43	1.702
626.22	1.694
628.89	1.698
631.56	1.710
634.22	1.710
636.91	1.718
639.60	1.702
642.29	1.686
645.09	1.694
647.84	1.690
650.38	1.702
652.84	1.670
655.41	1.662
657.97	1.678
660.66	1.670
663.29	1.657
665.83	1.653
668.36	1.657
670.90	1.649
673.45	1.645
675.95	1.649
678.50	1.653
681.10	1.625
683.69	1.645
686.17	1.629
688.59	1.629
691.03	1.637
693.66	1.605
696.41	1.621
699.08	1.617
701.85	1.617
704.59	1.609
707.41	1.641
710.02	1.601
712.77	1.609
715.61	1.609
718.39	1.613
721.16	1.601
723.87	1.617
726.62	1.605
729.41	1.605
732.14	1.617
734.80	1.601
737.48	1.609
740.18	1.597
742.86	1.588
745.46	1.584
748.10	1.584
750.58	1.572
753.15	1.609
755.76	1.597
758.23	1.576
760.86	1.601
763.44	1.613
766.01	1.617
768.68	1.605
771.25	1.641
773.86	1.621
776.51	1.633
779.08	1.617
781.75	1.637
784.36	1.662
786.91	1.653
788.55	1.662