Folder: GraduationProject/论文/论文/dsc

Note: README.md
# GraduationProject
2017年6月毕业设计相关文件，高分子材料与工程专业。
以此留念！

File: 10%5mm.txt
Filename:	D:\TGAdata\„∆√ŒœÈ\20150506\10%5mm.pdid

Temperature (°„C)	Heat Flow Endo Up (mW)
10.21	1.2729
10.60	0.9924
11.23	1.6685
11.87	2.4976
12.52	2.8700
13.17	3.0109
13.82	3.0687
14.47	3.0983
15.12	3.1198
15.77	3.1375
16.43	3.1545
17.07	3.1707
17.72	3.1913
18.37	3.2081
19.02	3.2221
19.67	3.2342
20.31	3.2499
20.96	3.2660
21.61	3.2823
22.26	3.2974
22.90	3.3137
23.55	3.3298
24.19	3.3453
24.84	3.3617
25.49	3.3785
26.14	3.3954
26.79	3.4138
27.44	3.4295
28.09	3.4439
28.74	3.4637
29.39	3.4812
30.04	3.4983
30.68	3.5156
31.34	3.5325
31.98	3.5491
32.63	3.5669
33.28	3.5841
33.93	3.6016
34.57	3.6207
35.22	3.6394
35.87	3.6586
36.52	3.6794
37.17	3.6991
37.82	3.7176
38.47	3.7354
39.12	3.7545
39.77	3.7742
40.42	3.7943
41.07	3.8144
41.71	3.8345
42.36	3.8539
43.01	3.8746
43.66	3.8945
44.31	3.9146
44.95	3.9335
45.60	3.9539
46.25	3.9751
46.90	3.9954
47.55	4.0156
48.20	4.0370
48.85	4.0570
49.50	4.0761
50.15	4.0975
50.80	4.1194
51.44	4.1391
52.09	4.1591
52.74	4.1800
53.39	4.1997
54.04	4.2194
54.69	4.2407
55.34	4.2598
55.99	4.2804
56.64	4.3023
57.29	4.3226
57.93	4.3435
58.59	4.3632
59.23	4.3855
59.88	4.4034
60.53	4.4243
61.19	4.4459
61.83	4.4652
62.48	4.4875
63.13	4.5094
63.78	4.5310
64.43	4.5524
65.08	4.5735
65.72	4.5958
66.38	4.6161
67.03	4.6363
67.67	4.6584
68.33	4.6810
68.98	4.7022
69.63	4.7251
70.28	4.7476
70.92	4.7712
71.57	4.7932
72.22	4.8157
72.88	4.8382
73.53	4.8613
74.17	4.8844
74.83	4.9070
75.48	4.9300
76.13	4.9533
76.78	4.9753
77.42	4.9961
78.08	5.0188
78.73	5.0421
79.37	5.0632
80.02	5.0865
80.67	5.1107
81.33	5.1382
81.97	5.1622
82.62	5.1830
83.27	5.2080
83.92	5.2341
84.57	5.2604
85.21	5.2874
85.85	5.3134
86.50	5.3400
87.15	5.3681
87.80	5.3959
88.45	5.4222
89.09	5.4500
89.75	5.4784
90.39	5.5086
91.04	5.5382
91.68	5.5685
92.34	5.5996
92.98	5.6286
93.63	5.6571
94.28	5.6866
94.92	5.7175
95.58	5.7479
96.23	5.7801
96.87	5.8082
97.52	5.8458
98.17	5.8798
98.82	5.9133
99.47	5.9441
100.12	5.9800
100.77	6.0137
101.42	6.0479
102.07	6.0821
102.72	6.1175
103.37	6.1548
104.01	6.1959
104.67	6.2375
105.32	6.2798
105.96	6.3274
106.61	6.3722
107.26	6.4116
107.90	6.4381
108.55	6.4423
109.20	6.4323
109.86	6.4316
110.50	6.4396
111.15	6.4750
111.80	6.5061
112.45	6.5406
113.10	6.5750
113.75	6.6089
114.40	6.6423
115.05	6.6756
115.70	6.7131
116.35	6.7466
117.00	6.7851
117.65	6.8222
118.30	6.8571
118.95	6.8927
119.60	6.9313
120.25	6.9716
120.90	7.0122
121.54	7.0494
122.19	7.0887
122.85	7.1283
123.48	7.1682
124.14	7.2075
124.79	7.2466
125.43	7.2869
126.09	7.3268
126.74	7.3657
127.38	7.4049
128.03	7.4461
128.69	7.4857
129.34	7.5226
129.99	7.5637
130.64	7.6076
131.28	7.6513
131.93	7.6925
132.59	7.7367
133.24	7.7809
133.89	7.8244
134.54	7.8709
135.18	7.9179
135.83	7.9585
136.48	8.0053
137.13	8.0510
137.78	8.0987
138.43	8.1462
139.08	8.1978
139.73	8.2500
140.38	8.3018
141.04	8.3568
141.69	8.4119
142.34	8.4662
142.99	8.5199
143.64	8.5772
144.29	8.6331
144.93	8.6904
145.58	8.7472
146.23	8.8020
146.88	8.8585
147.53	8.9163
148.18	8.9727
148.82	9.0295
149.47	9.0855
150.12	9.1514
150.77	9.2243
151.42	9.3008
152.06	9.3771
152.70	9.4626
153.36	9.5505
154.00	9.6372
154.65	9.7333
155.30	9.8321
155.95	9.9378
156.60	10.0576
157.25	10.1825
157.89	10.3173
158.55	10.4721
159.19	10.6471
159.84	10.8395
160.49	11.0354
161.14	11.2703
161.79	11.5013
162.44	11.7333
163.08	11.9595
163.73	12.1808
164.38	12.3503
165.03	12.4631
165.68	12.5276
166.33	12.5419
166.97	12.4768
167.62	12.3252
168.28	12.0532
168.93	11.6440
169.58	11.1303
170.22	10.6255
170.88	10.2730
171.52	10.1136
172.17	10.0690
172.82	10.0814
173.47	10.1227
174.12	10.1675
174.77	10.2167
175.42	10.2683
176.07	10.3201
176.72	10.3684
177.37	10.4200
178.01	10.4709
178.66	10.5193
179.31	10.5700
179.96	10.6142
180.61	10.6620
181.26	10.7025
181.91	10.7579
182.55	10.8089
183.20	10.8574
183.85	10.9065
184.50	10.9584
185.15	11.0095
185.80	11.0572
186.45	11.1080
187.10	11.1597
187.75	11.2101
188.40	11.2615
189.05	11.3108
189.70	11.3639
190.35	11.4169
191.00	11.4663
191.65	11.5199
192.30	11.5694
192.94	11.6216
193.60	11.6751
194.25	11.7262
194.90	11.7776
195.55	11.8318
196.19	11.8867
196.85	11.9381
197.50	11.9897
198.15	12.0446
198.80	12.0964
199.44	12.1493
199.91	12.1866

File: 30%10mm.txt
Filename:	D:\TGAdata\„∆√ŒœÈ\20150506\30%10mm.pdid

Temperature (°„C)	Heat Flow Endo Up (mW)
10.12	0.3039
10.51	0.8391
11.14	1.8423
11.79	2.7130
12.43	3.0812
13.09	3.2171
13.73	3.2722
14.39	3.3036
15.04	3.3272
15.69	3.3470
16.34	3.3672
16.99	3.3866
17.64	3.4088
18.29	3.4284
18.94	3.4452
19.59	3.4620
20.23	3.4791
20.88	3.4987
21.53	3.5182
22.18	3.5373
22.83	3.5561
23.48	3.5764
24.13	3.5952
24.78	3.6152
25.42	3.6332
26.07	3.6540
26.72	3.6746
27.36	3.6940
28.02	3.7157
28.67	3.7381
29.31	3.7576
29.97	3.7782
30.61	3.7995
31.26	3.8207
31.91	3.8405
32.57	3.8600
33.21	3.8817
33.85	3.9036
34.50	3.9246
35.15	3.9459
35.80	3.9680
36.45	3.9887
37.10	4.0109
37.75	4.0331
38.40	4.0537
39.04	4.0773
39.70	4.1005
40.34	4.1223
40.99	4.1457
41.65	4.1685
42.30	4.1923
42.94	4.2154
43.59	4.2392
44.24	4.2631
44.88	4.2861
45.53	4.3100
46.19	4.3347
46.84	4.3583
47.48	4.3822
48.14	4.4072
48.79	4.4308
49.43	4.4535
50.08	4.4781
50.73	4.5011
51.38	4.5257
52.03	4.5477
52.68	4.5703
53.33	4.5928
53.98	4.6157
54.63	4.6373
55.28	4.6597
55.93	4.6834
56.58	4.7128
57.23	4.7320
57.88	4.7521
58.53	4.7728
59.18	4.7953
59.82	4.8159
60.48	4.8369
61.13	4.8602
61.77	4.8848
62.42	4.9080
63.06	4.9337
63.72	4.9669
64.38	4.9902
65.02	5.0115
65.67	5.0312
66.32	5.0516
66.97	5.0753
67.63	5.1004
68.27	5.1260
68.92	5.1496
69.57	5.1739
70.22	5.3997
70.87	5.3518
71.52	5.2886
72.16	5.2881
72.82	5.3060
73.47	5.3287
74.12	5.3542
74.77	5.3787
75.42	5.4034
76.07	5.4296
76.72	5.4556
77.37	5.4818
78.02	5.5097
78.67	5.5336
79.33	5.5590
79.97	5.5840
80.62	5.6117
81.27	5.6387
81.92	5.6650
82.57	5.6870
83.21	5.7134
83.86	5.7409
84.51	5.7675
85.16	5.7967
85.80	5.8258
86.45	5.8531
87.10	5.8817
87.75	5.9105
88.39	5.9386
89.05	5.9669
89.69	5.9950
90.34	6.0245
90.98	6.0550
91.63	6.0845
92.28	6.1144
92.93	6.1421
93.58	6.1714
94.23	6.2014
94.88	6.2329
95.53	6.2637
96.17	6.2943
96.83	6.3231
97.48	6.3572
98.12	6.3921
98.77	6.4214
99.42	6.4534
100.07	6.4847
100.72	6.5204
101.37	6.5541
102.02	6.5874
102.67	6.6192
103.31	6.6524
103.97	6.6843
104.62	6.7189
105.26	6.7527
105.91	6.7882
106.56	6.8210
107.21	6.8556
107.86	6.8906
108.51	6.9291
109.16	6.9642
109.81	6.9997
110.46	7.0356
111.11	7.0722
111.76	7.1079
112.41	7.1449
113.06	7.1826
113.71	7.2213
114.35	7.2571
115.00	7.2939
115.65	7.3327
116.30	7.3691
116.95	7.4090
117.60	7.4487
118.25	7.4862
118.90	7.5242
119.55	7.5632
120.20	7.6033
120.85	7.6435
121.50	7.6823
122.15	7.7237
122.80	7.7638
123.45	7.8058
124.10	7.8477
124.75	7.8896
125.40	7.9322
126.04	7.9733
126.70	8.0154
127.34	8.0581
127.99	8.1027
128.64	8.1483
129.29	8.1913
129.94	8.2362
130.59	8.2805
131.24	8.3272
131.89	8.3719
132.54	8.4195
133.19	8.4677
133.84	8.5156
134.49	8.5640
135.15	8.6106
135.79	8.6571
136.44	8.7089
137.09	8.7581
137.75	8.8067
138.39	8.8568
139.05	8.9074
139.69	8.9585
140.34	9.0110
141.00	9.0641
141.65	9.1208
142.30	9.1808
142.94	9.2410
143.60	9.3046
144.24	9.3712
144.90	9.4413
145.54	9.5103
146.19	9.5760
146.84	9.6294
147.49	9.6683
148.13	9.7030
148.79	9.7424
149.43	9.7995
150.08	9.8750
150.72	9.9656
151.38	10.0621
152.02	10.1580
152.67	10.2561
153.32	10.3493
153.97	10.4422
154.61	10.5371
155.26	10.6386
155.91	10.7509
156.56	10.8779
157.21	11.0181
157.86	11.1763
158.50	11.3606
159.15	11.5686
159.80	11.7916
160.45	12.0444
161.10	12.3119
161.75	12.5801
162.40	12.8368
163.05	13.0161
163.69	13.2239
164.34	13.4087
164.99	13.5642
165.64	13.6946
166.29	13.8015
166.94	13.8472
167.58	13.8088
168.24	13.6376
168.89	13.2831
169.54	12.7170
170.18	12.0145
170.84	11.3909
171.49	11.0254
172.13	10.8911
172.78	10.8757
173.43	10.9029
174.08	10.9469
174.74	10.9952
175.38	11.0455
176.03	11.0964
176.68	11.1448
177.33	11.1936
177.97	11.2456
178.63	11.2959
179.28	11.3474
179.93	11.3976
180.58	11.4496
181.22	11.5007
181.87	11.5532
182.52	11.6047
183.17	11.6576
183.81	11.7085
184.47	11.7607
185.12	11.8133
185.77	11.8662
186.42	11.9197
187.07	11.9752
187.72	12.0263
188.36	12.0797
189.02	12.1338
189.66	12.1898
190.32	12.2440
190.97	12.2999
191.62	12.3533
192.26	12.4087
192.91	12.4643
193.56	12.5202
194.21	12.5739
194.86	12.6302
195.51	12.6860
196.16	12.7397
196.81	12.7964
197.46	12.8517
198.11	12.9093
198.76	12.9659
199.41	13.0211
199.88	13.0616

File: chunPP.txt
Filename:	D:\TGAdata\„∆√ŒœÈ\20150506\chunPP.pdid

Temperature (°„C)	Heat Flow Endo Up (mW)
10.13	-6.4984
10.51	-3.7265
11.14	-1.3553
11.78	0.7835
12.43	2.0266
13.08	2.6674
13.73	2.9908
14.39	3.1552
15.03	3.2459
15.68	3.2972
16.34	3.3322
16.98	3.3577
17.63	3.3837
18.29	3.4071
18.94	3.4212
19.58	3.4366
20.23	3.4528
20.88	3.4673
21.52	3.4856
22.18	3.5012
22.82	3.5190
23.47	3.5362
24.11	3.5548
24.77	3.5704
25.42	3.5845
26.07	3.6042
26.71	3.6243
27.36	3.6403
28.01	3.6581
28.66	3.6791
29.31	3.6985
29.96	3.7164
30.61	3.7347
31.26	3.7528
31.91	3.7715
32.55	3.7890
33.20	3.8069
33.85	3.8260
34.50	3.8467
35.15	3.8631
35.80	3.8835
36.45	3.9031
37.09	3.9222
37.75	3.9425
38.40	3.9624
39.05	3.9801
39.70	4.0016
40.34	4.0225
40.99	4.0437
41.64	4.0642
42.29	4.0843
42.94	4.1073
43.59	4.1292
44.24	4.1512
44.89	4.1693
45.53	4.1913
46.18	4.2138
46.83	4.2358
47.48	4.2566
48.13	4.2823
48.78	4.3034
49.43	4.3238
50.08	4.3452
50.74	4.3692
51.38	4.3919
52.03	4.4145
52.68	4.4366
53.33	4.4586
53.98	4.4811
54.63	4.5037
55.27	4.5256
55.93	4.5470
56.58	4.5698
57.23	4.5931
57.88	4.6168
58.52	4.6362
59.18	4.6586
59.82	4.6823
60.48	4.7003
61.12	4.7214
61.77	4.7424
62.42	4.7646
63.07	4.7872
63.72	4.8096
64.37	4.8307
65.02	4.8537
65.67	4.8747
66.32	4.8962
66.97	4.9178
67.62	4.9397
68.27	4.9633
68.92	4.9848
69.57	5.0073
70.22	5.0313
70.87	5.0531
71.52	5.0747
72.16	5.0991
72.82	5.1192
73.47	5.1456
74.12	5.1708
74.77	5.1930
75.42	5.2182
76.07	5.2411
76.72	5.2676
77.37	5.2908
78.02	5.3167
78.67	5.3394
79.32	5.3648
79.97	5.3892
80.62	5.4187
81.27	5.4449
81.92	5.4734
82.57	5.4934
83.21	5.5179
83.86	5.5435
84.51	5.5684
85.16	5.5976
85.80	5.6254
86.45	5.6510
87.10	5.6794
87.75	5.7093
88.40	5.7328
89.05	5.7620
89.69	5.7906
90.34	5.8185
90.98	5.8488
91.63	5.8781
92.28	5.9076
92.93	5.9387
93.58	5.9674
94.23	5.9949
94.88	6.0260
95.53	6.0578
96.17	6.0886
96.82	6.1136
97.48	6.1514
98.13	6.1859
98.77	6.2157
99.42	6.2491
100.07	6.2802
100.72	6.3132
101.37	6.3450
102.02	6.3792
102.67	6.4118
103.32	6.4434
103.97	6.4775
104.62	6.5133
105.27	6.5468
105.92	6.5804
106.56	6.6183
107.21	6.6538
107.86	6.6857
108.50	6.7205
109.16	6.7565
109.81	6.7912
110.46	6.8253
111.11	6.8619
111.76	6.8988
112.41	6.9340
113.06	6.9703
113.70	7.0071
114.35	7.0431
115.01	7.0814
115.65	7.1206
116.31	7.1576
116.95	7.1963
117.60	7.2358
118.25	7.2747
118.90	7.3119
119.55	7.3515
120.20	7.3950
120.85	7.4356
121.50	7.4758
122.15	7.5172
122.80	7.5582
123.45	7.6014
124.10	7.6431
124.75	7.6849
125.40	7.7268
126.05	7.7706
126.70	7.8143
127.35	7.8572
128.00	7.9012
128.64	7.9474
129.30	7.9913
129.95	8.0364
130.60	8.0839
131.25	8.1308
131.90	8.1790
132.54	8.2262
133.19	8.2731
133.84	8.3233
134.50	8.3733
135.15	8.4251
135.79	8.4733
136.44	8.5233
137.09	8.5761
137.75	8.6290
138.40	8.6823
139.05	8.7368
139.69	8.7934
140.35	8.8485
141.00	8.9047
141.65	8.9635
142.30	9.0250
142.94	9.0883
143.60	9.1532
144.25	9.2222
144.90	9.3005
145.55	9.3790
146.19	9.4581
146.84	9.5387
147.49	9.6158
148.14	9.6837
148.78	9.7430
149.43	9.7852
150.08	9.8222
150.73	9.8660
151.38	9.9314
152.02	10.0160
152.67	10.1167
153.32	10.2253
153.96	10.3356
154.61	10.4470
155.25	10.5545
155.91	10.6611
156.56	10.7746
157.21	10.8967
157.86	11.0325
158.50	11.1859
159.15	11.3603
159.80	11.5574
160.45	11.7906
161.10	12.0563
161.75	12.3504
162.40	12.6677
163.05	12.9892
163.69	13.3209
164.34	13.6173
164.99	13.8890
165.64	14.1302
166.29	14.3417
166.94	14.5132
167.59	14.6584
168.24	14.7643
168.88	14.8066
169.54	14.7387
170.19	14.5021
170.83	14.0139
171.48	13.2165
172.14	12.2695
172.79	11.5266
173.44	11.1097
174.09	10.9241
174.73	10.8657
175.38	10.8659
176.03	10.8915
176.68	10.9325
177.33	10.9720
177.98	11.0205
178.63	11.0706
179.28	11.1200
179.93	11.1682
180.58	11.2204
181.22	11.2714
181.88	11.3212
182.52	11.3718
183.17	11.4238
183.82	11.4729
184.47	11.5231
185.12	11.5767
185.77	11.6265
186.42	11.6797
187.07	11.7330
187.72	11.7850
188.37	11.8352
189.02	11.8866
189.67	11.9384
190.32	11.9958
190.97	12.0510
191.62	12.1055
192.27	12.1588
192.92	12.2102
193.57	12.2634
194.22	12.3185
194.87	12.3729
195.51	12.4262
196.17	12.4815
196.81	12.5360
197.47	12.5901
198.11	12.6469
198.76	12.7011
199.42	12.7537
199.88	12.7936