Folder: GraduationProject/论文/¬€Œƒ/¬€Œƒ/dsc

Note: README.md
# GraduationProject
2017年6月毕业设计相关文件，高分子材料与工程专业。
以此留念！

File: 10%10mm.txt
Filename:	D:\TGAdata\„∆√ŒœÈ\20150506\10.pdid

Temperature (°„C)	Heat Flow Endo Up (mW)
10.68	2.2955
11.03	1.4259
11.65	1.8262
12.28	2.6273
12.93	3.0762
13.58	3.2752
14.23	3.3626
14.87	3.4063
15.52	3.4335
16.17	3.4562
16.81	3.4782
17.46	3.4964
18.11	3.5188
18.75	3.5377
19.40	3.5550
20.04	3.5711
20.69	3.5886
21.33	3.6056
21.98	3.6249
22.62	3.6426
23.27	3.6624
23.92	3.6809
24.56	3.6997
25.20	3.7188
25.84	3.7361
26.49	3.7562
27.14	3.7765
27.78	3.7938
28.43	3.8136
29.08	3.8343
29.73	3.8538
30.37	3.8727
31.02	3.8916
31.66	3.9112
32.31	3.9319
32.95	3.9515
33.60	3.9703
34.25	3.9895
34.89	4.0111
35.53	4.0305
36.18	4.0502
36.84	4.0690
37.48	4.0900
38.13	4.1102
38.77	4.1294
39.42	4.1492
40.07	4.1694
40.72	4.1897
41.36	4.2093
42.01	4.2304
42.65	4.2520
43.30	4.2723
43.94	4.2925
44.59	4.3131
45.24	4.3329
45.89	4.3545
46.53	4.3757
47.18	4.3962
47.83	4.4175
48.48	4.4399
49.13	4.4612
49.77	4.4810
50.42	4.5031
51.06	4.5254
51.71	4.5470
52.36	4.5703
53.00	4.5920
53.66	4.6147
54.30	4.6376
54.95	4.6606
55.59	4.6834
56.25	4.7063
56.90	4.7315
57.54	4.7550
58.19	4.7786
58.83	4.8033
59.49	4.8293
60.13	4.8543
60.77	4.8785
61.42	4.9049
62.07	4.9313
62.72	4.9564
63.36	4.9829
64.02	5.0078
64.67	5.0343
65.31	5.0611
65.96	5.0865
66.61	5.1106
67.25	5.1353
67.90	5.1600
68.55	5.1844
69.20	5.2083
69.85	5.2324
70.50	5.2564
71.14	5.2814
71.79	5.3038
72.44	5.3280
73.09	5.3531
73.74	5.3760
74.39	5.4008
75.04	5.4257
75.69	5.4492
76.34	5.4748
76.98	5.4984
77.63	5.5214
78.28	5.5474
78.92	5.5727
79.58	5.5959
80.23	5.6202
80.88	5.6482
81.53	5.6746
82.17	5.6985
82.82	5.7196
83.46	5.7435
84.11	5.7685
84.76	5.7944
85.40	5.8216
86.05	5.8454
86.69	5.8705
87.34	5.8961
87.99	5.9217
88.63	5.9469
89.28	5.9723
89.93	5.9977
90.58	6.0239
91.22	6.0506
91.87	6.0776
92.52	6.1039
93.16	6.1281
93.81	6.1539
94.46	6.1812
95.11	6.2084
95.75	6.2351
96.40	6.2623
97.05	6.2879
97.70	6.3195
98.34	6.3467
99.00	6.3744
99.64	6.4008
100.29	6.4276
100.94	6.4558
101.59	6.4819
102.24	6.5107
102.88	6.5390
103.53	6.5668
104.18	6.5955
104.83	6.6227
105.48	6.6527
106.12	6.6802
106.77	6.7089
107.42	6.7362
108.07	6.7627
108.71	6.7905
109.36	6.8168
110.02	6.8438
110.66	6.8688
111.31	6.8973
111.96	6.9278
112.60	6.9572
113.25	6.9889
113.91	7.0196
114.55	7.0494
115.20	7.0808
115.85	7.1136
116.50	7.1452
117.15	7.1778
117.79	7.2118
118.44	7.2445
119.09	7.2789
119.74	7.3123
120.39	7.3466
121.04	7.3815
121.69	7.4164
122.33	7.4510
122.98	7.4870
123.63	7.5235
124.28	7.5591
124.93	7.5948
125.58	7.6331
126.23	7.6700
126.88	7.7079
127.52	7.7453
128.17	7.7836
128.82	7.8248
129.47	7.8622
130.13	7.9005
130.77	7.9426
131.42	7.9834
132.07	8.0258
132.71	8.0683
133.37	8.1099
134.02	8.1516
134.66	8.1974
135.31	8.2411
135.96	8.2826
136.61	8.3294
137.26	8.3750
137.91	8.4199
138.56	8.4671
139.21	8.5166
139.86	8.5642
140.51	8.6124
141.15	8.6627
141.81	8.7146
142.46	8.7659
143.10	8.8212
143.76	8.8790
144.40	8.9369
145.05	8.9990
145.70	9.0605
146.35	9.1241
146.99	9.1880
147.64	9.2540
148.30	9.3178
148.94	9.3788
149.58	9.4350
150.23	9.4933
150.88	9.5480
151.53	9.6053
152.18	9.6704
152.82	9.7459
153.47	9.8289
154.12	9.9192
154.76	10.0111
155.41	10.1057
156.06	10.2081
156.71	10.3171
157.35	10.4284
158.00	10.5522
158.65	10.6951
159.30	10.8512
159.95	11.0272
160.60	11.2281
161.24	11.4469
161.89	11.6867
162.54	11.9294
163.18	12.1635
163.83	12.3874
164.48	12.6070
165.13	12.8062
165.78	12.9946
166.43	13.1484
167.07	13.2491
167.72	13.2919
168.38	13.2417
169.03	13.0990
169.68	12.8225
170.32	12.3592
170.97	11.7229
171.62	11.0769
172.27	10.6409
172.92	10.4367
173.56	10.3742
174.21	10.3712
174.86	10.3793
175.51	10.4258
176.16	10.4765
176.81	10.5283
177.46	10.5785
178.10	10.6276
178.75	10.6772
179.40	10.7239
180.05	10.7719
180.70	10.8199
181.35	10.8641
182.00	10.9133
182.64	10.9603
183.29	11.0073
183.94	11.0551
184.59	11.1028
185.24	11.1525
185.89	11.1994
186.54	11.2465
187.19	11.2963
187.84	11.3417
188.48	11.3901
189.13	11.4391
189.79	11.4896
190.43	11.5384
191.08	11.5911
191.73	11.6404
192.38	11.6869
193.03	11.7230
193.68	11.7782
194.33	11.8337
194.98	11.8842
195.63	11.9349
196.28	11.9845
196.93	12.0360
197.58	12.0860
198.22	12.1372
198.88	12.1853
199.53	12.2361
199.99	12.2707

File: 15%5mm.txt
Filename:	D:\TGAdata\„∆√ŒœÈ\20150506\15%5mm.pdid

Temperature (°„C)	Heat Flow Endo Up (mW)
10.67	1.4901
11.02	0.7952
11.64	1.3854
12.29	2.1375
12.94	2.5151
13.58	2.6670
14.24	2.7330
14.88	2.7677
15.53	2.7921
16.19	2.8131
16.84	2.8335
17.49	2.8537
18.14	2.8751
18.78	2.8941
19.43	2.9116
20.08	2.9268
20.73	2.9448
21.38	2.9654
22.03	2.9837
22.68	3.0027
23.32	3.0222
23.97	3.0420
24.62	3.0621
25.27	3.0813
25.91	3.0996
26.56	3.1205
27.20	3.1409
27.86	3.1590
28.50	3.1800
29.15	3.2020
29.81	3.2218
30.46	3.2433
31.10	3.2630
31.75	3.2826
32.40	3.3031
33.05	3.3240
33.70	3.3435
34.34	3.3659
34.99	3.3871
35.65	3.4083
36.29	3.4288
36.95	3.4506
37.59	3.4725
38.24	3.4949
38.89	3.5155
39.54	3.5374
40.19	3.5611
40.83	3.5833
41.49	3.6061
42.14	3.6292
42.78	3.6530
43.44	3.6770
44.08	3.7020
44.73	3.7248
45.38	3.7482
46.02	3.7703
46.67	3.7941
47.33	3.8171
47.98	3.8424
48.63	3.8665
49.27	3.8896
49.92	3.9128
50.57	3.9373
51.22	3.9610
51.88	3.9835
52.52	4.0059
53.17	4.0282
53.82	4.0513
54.47	4.0735
55.12	4.0953
55.77	4.1169
56.41	4.1389
57.06	4.1612
57.71	4.1843
58.36	4.2063
59.01	4.2263
59.66	4.2514
60.31	4.2723
60.96	4.2939
61.61	4.3173
62.25	4.3405
62.90	4.3628
63.55	4.3867
64.20	4.4085
64.86	4.4312
65.50	4.4554
66.16	4.4813
66.80	4.5040
67.46	4.5276
68.11	4.5523
68.75	4.5761
69.40	4.6001
70.05	4.6253
70.70	4.6511
71.36	4.6746
72.00	4.6983
72.65	4.7226
73.30	4.7475
73.95	4.7726
74.61	4.7996
75.26	4.8253
75.91	4.8511
76.56	4.8775
77.21	4.9047
77.86	4.9283
78.51	4.9552
79.16	4.9819
79.80	5.0093
80.46	5.0352
81.11	5.0639
81.75	5.0938
82.40	5.1206
83.05	5.1452
83.70	5.1719
84.34	5.1985
85.00	5.2272
85.64	5.2573
86.29	5.2865
86.94	5.3141
87.59	5.3440
88.23	5.3723
88.88	5.4014
89.53	5.4315
90.17	5.4594
90.82	5.4899
91.47	5.5207
92.13	5.5528
92.77	5.5823
93.42	5.6124
94.07	5.6427
94.72	5.6751
95.37	5.7076
96.02	5.7376
96.66	5.7704
97.31	5.8007
97.97	5.8347
98.61	5.8686
99.26	5.9013
99.91	5.9347
100.56	5.9672
101.20	6.0012
101.86	6.0344
102.51	6.0683
103.15	6.1026
103.80	6.1349
104.46	6.1689
105.10	6.2031
105.75	6.2388
106.40	6.2727
107.05	6.3096
107.70	6.3423
108.35	6.3753
109.00	6.4127
109.64	6.4491
110.29	6.4851
110.94	6.5206
111.60	6.5580
112.25	6.5944
112.90	6.6338
113.55	6.6690
114.19	6.7077
114.85	6.7447
115.49	6.7836
116.14	6.8232
116.79	6.8613
117.44	6.9003
118.09	6.9402
118.74	6.9782
119.39	7.0189
120.04	7.0598
120.69	7.1014
121.34	7.1428
121.99	7.1842
122.64	7.2256
123.29	7.2632
123.94	7.3051
124.58	7.3506
125.24	7.3948
125.89	7.4397
126.53	7.4824
127.18	7.5262
127.84	7.5708
128.48	7.6137
129.13	7.6600
129.78	7.7045
130.43	7.7501
131.09	7.7976
131.73	7.8462
132.38	7.8935
133.04	7.9415
133.69	7.9887
134.33	8.0364
134.98	8.0850
135.63	8.1353
136.28	8.1853
136.93	8.2377
137.58	8.2891
138.23	8.3416
138.89	8.3940
139.54	8.4490
140.19	8.5047
140.84	8.5543
141.49	8.6167
142.14	8.6809
142.79	8.7489
143.44	8.8209
144.09	8.8969
144.74	8.9734
145.39	9.0478
146.03	9.1092
146.68	9.1551
147.33	9.1873
147.98	9.2147
148.63	9.2489
149.28	9.2995
149.93	9.3704
150.58	9.4616
151.22	9.5638
151.88	9.6665
152.52	9.7630
153.16	9.8530
153.82	9.9370
154.47	10.0225
155.11	10.1157
155.75	10.2232
156.41	10.3471
157.06	10.4922
157.70	10.6553
158.36	10.8371
159.00	11.0419
159.65	11.2723
160.31	11.5269
160.95	11.8006
161.60	12.0818
162.25	12.3647
162.89	12.6242
163.54	12.8631
164.19	13.0445
164.84	13.2505
165.49	13.4233
166.13	13.5508
166.79	13.6115
167.44	13.6593
168.09	13.5476
168.73	13.1969
169.38	12.5764
170.04	11.7498
170.69	10.9982
171.34	10.5716
171.98	10.4132
172.64	10.3869
173.28	10.4104
173.94	10.4515
174.58	10.5008
175.23	10.5490
175.88	10.5950
176.53	10.6435
177.18	10.6920
177.83	10.7400
178.48	10.7902
179.13	10.8425
179.78	10.8929
180.43	10.9417
181.08	10.9922
181.72	11.0424
182.38	11.0940
183.02	11.1444
183.67	11.1934
184.32	11.2432
184.97	11.2938
185.62	11.3448
186.27	11.3994
186.93	11.4502
187.57	11.5059
188.22	11.5584
188.87	11.6118
189.52	11.6657
190.17	11.7189
190.82	11.7720
191.47	11.8256
192.12	11.8805
192.77	11.9347
193.42	11.9883
194.07	12.0426
194.72	12.0972
195.37	12.1526
196.02	12.2070
196.67	12.2600
197.32	12.3172
197.97	12.3718
198.62	12.4256
199.27	12.4811
199.92	12.5346
200.40	12.5751

File: 20%5mm.txt
Filename:	D:\TGAdata\„∆√ŒœÈ\20150506\20%5mm.pdid

Temperature (°„C)	Heat Flow Endo Up (mW)
24.30	9.0603
20.40	5.0875
16.69	1.7728
13.21	-9.1220
12.58	-15.8657
13.14	-7.8609
13.77	-1.7677
14.41	1.1828
15.06	2.4101
15.71	2.8979
16.37	3.0948
17.01	3.1798
17.66	3.2250
18.31	3.2531
18.96	3.2724
19.61	3.2874
20.26	3.3044
20.90	3.3212
21.55	3.3377
22.20	3.3555
22.85	3.3716
23.50	3.3889
24.14	3.4070
24.80	3.4229
25.44	3.4387
26.09	3.4568
26.73	3.4757
27.38	3.4913
28.04	3.5095
28.69	3.5289
29.33	3.5482
29.99	3.5649
30.63	3.5826
31.29	3.6006
31.93	3.6182
32.58	3.6361
33.23	3.6538
33.88	3.6730
34.52	3.6931
35.17	3.7124
35.83	3.7312
36.47	3.7500
37.13	3.7694
37.77	3.7878
38.42	3.8070
39.07	3.8267
39.72	3.8479
40.36	3.8681
41.02	3.8875
41.66	3.9084
42.31	3.9293
42.97	3.9504
43.61	3.9717
44.26	3.9926
44.91	4.0125
45.55	4.0326
46.21	4.0542
46.85	4.0742
47.51	4.0955
48.15	4.1175
48.80	4.1386
49.45	4.1568
50.10	4.1789
50.75	4.1989
51.40	4.2204
52.05	4.2423
52.70	4.2647
53.34	4.2832
54.00	4.3061
54.65	4.3270
55.30	4.3471
55.95	4.3688
56.60	4.3906
57.25	4.4120
57.90	4.4349
58.55	4.4558
59.20	4.4786
59.84	4.5005
60.49	4.5210
61.14	4.5415
61.79	4.5639
62.44	4.5861
63.09	4.6090
63.74	4.6304
64.39	4.6522
65.04	4.6754
65.68	4.6975
66.34	4.7207
66.99	4.7423
67.64	4.7648
68.29	4.7871
68.94	4.8097
69.59	4.8334
70.23	4.8574
70.88	4.8798
71.53	4.9017
72.18	4.9251
72.84	4.9485
73.49	4.9726
74.14	4.9961
74.79	5.0193
75.44	5.0426
76.09	5.0663
76.74	5.0920
77.39	5.1153
78.04	5.1376
78.69	5.1622
79.34	5.1870
79.99	5.2114
80.64	5.2372
81.28	5.2628
81.94	5.2868
82.58	5.3076
83.23	5.3316
83.88	5.3569
84.53	5.3814
85.17	5.4095
85.83	5.4334
86.47	5.4604
87.13	5.4871
87.77	5.5128
88.42	5.5387
89.06	5.5673
89.71	5.5941
90.35	5.6214
91.00	5.6478
91.65	5.6770
92.30	5.7061
92.95	5.7329
93.59	5.7613
94.25	5.7897
94.89	5.8193
95.54	5.8471
96.19	5.8800
96.84	5.9059
97.49	5.9386
98.14	5.9720
98.80	6.0001
99.44	6.0303
100.08	6.0617
100.74	6.0928
101.39	6.1232
102.04	6.1561
102.69	6.1868
103.34	6.2166
103.98	6.2486
104.63	6.2825
105.28	6.3148
105.93	6.3468
106.58	6.3812
107.23	6.4133
107.88	6.4434
108.53	6.4775
109.18	6.5093
109.83	6.5431
110.48	6.5776
111.13	6.6116
111.78	6.6461
112.43	6.6792
113.07	6.7155
113.73	6.7502
114.37	6.7836
115.03	6.8194
115.67	6.8582
116.32	6.8940
116.97	6.9303
117.62	6.9674
118.27	7.0036
118.92	7.0402
119.57	7.0796
120.22	7.1186
120.86	7.1570
121.52	7.1956
122.17	7.2351
122.82	7.2747
123.47	7.3147
124.12	7.3537
124.76	7.3961
125.41	7.4360
126.06	7.4781
126.71	7.5186
127.36	7.5594
128.01	7.6032
128.66	7.6464
129.31	7.6868
129.96	7.7294
130.61	7.7731
131.26	7.8176
131.91	7.8629
132.55	7.9076
133.21	7.9533
133.86	7.9997
134.51	8.0456
135.16	8.0928
135.81	8.1381
136.46	8.1873
137.11	8.2359
137.75	8.2838
138.41	8.3328
139.06	8.3857
139.71	8.4377
140.36	8.4912
141.01	8.5442
141.66	8.6006
142.31	8.6586
142.96	8.7201
143.61	8.7840
144.26	8.8520
144.91	8.9213
145.56	8.9854
146.21	9.0437
146.86	9.0971
147.50	9.1414
148.15	9.1807
148.80	9.2230
149.45	9.2794
150.10	9.3508
150.75	9.4379
151.40	9.5308
152.04	9.6258
152.69	9.7181
153.34	9.8103
153.99	9.8971
154.63	9.9821
155.28	10.0730
155.93	10.1723
156.58	10.2846
157.22	10.4089
157.87	10.5479
158.52	10.7052
159.17	10.8786
159.82	11.0692
160.47	11.2755
161.12	11.4781
161.76	11.6673
162.42	11.8812
163.06	12.0949
163.71	12.2977
164.36	12.4906
165.01	12.6770
165.65	12.8623
166.30	13.0418
166.95	13.1943
167.60	13.3183
168.25	13.3949
168.90	13.3839
169.55	13.2345
170.20	12.8767
170.85	12.2777
171.50	11.4805
172.15	10.7693
172.80	10.4261
173.44	10.3171
174.10	10.3090
174.75	10.3420
175.40	10.3872
176.05	10.4394
176.69	10.4952
177.34	10.5485
178.00	10.6037
178.65	10.6551
179.29	10.7090
179.94	10.7629
180.59	10.8150
181.24	10.8667
181.88	10.9211
182.53	10.9739
183.18	11.0250
183.83	11.0757
184.48	11.1258
185.13	11.1786
185.78	11.2289
186.43	11.2817
187.08	11.3372
187.72	11.3883
188.38	11.4373
189.03	11.4910
189.68	11.5463
190.33	11.5996
190.98	11.6505
191.63	11.7057
192.28	11.7598
192.93	11.8124
193.58	11.8659
194.23	11.9209
194.88	11.9751
195.53	12.0298
196.18	12.0849
196.83	12.1424
197.48	12.1988
198.13	12.2568
198.78	12.3162
199.43	12.3478
199.89	12.3749

File: 20%10mm.txt
Filename:	D:\TGAdata\„∆√ŒœÈ\20150506\20%10mm.pdid

Temperature (°„C)	Heat Flow Endo Up (mW)
10.19	-2.6403
10.58	-2.0407
11.21	-1.1452
11.85	0.3894
12.51	1.4474
13.16	2.0614
13.81	2.4043
14.47	2.5973
15.12	2.7084
15.76	2.7767
16.41	2.8225
17.07	2.8547
17.72	2.8865
18.37	2.9133
19.02	2.9326
19.67	2.9478
20.32	2.9646
20.96	2.9819
21.61	2.9994
22.27	3.0174
22.91	3.0349
23.56	3.0554
24.21	3.0751
24.86	3.0927
25.51	3.1105
26.16	3.1286
26.81	3.1499
27.46	3.1666
28.10	3.1842
28.76	3.2068
29.41	3.2278
30.06	3.2464
30.71	3.2670
31.36	3.2877
32.01	3.3076
32.66	3.3256
33.31	3.3455
33.96	3.3637
34.61	3.3857
35.26	3.4066
35.91	3.4267
36.55	3.4449
37.21	3.4665
37.86	3.4889
38.51	3.5087
39.15	3.5298
39.81	3.5528
40.45	3.5743
41.11	3.5953
41.76	3.6169
42.40	3.6386
43.06	3.6622
43.71	3.6828
44.35	3.7064
45.00	3.7286
45.66	3.7501
46.31	3.7719
46.96	3.7959
47.61	3.8185
48.26	3.8436
48.90	3.8665
49.56	3.8881
50.21	3.9113
50.86	3.9367
51.51	3.9578
52.16	3.9809
52.81	4.0036
53.46	4.0280
54.11	4.0522
54.75	4.0751
55.41	4.0976
56.06	4.1190
56.70	4.1440
57.36	4.1668
58.01	4.1900
58.66	4.2132
59.31	4.2384
59.96	4.2620
60.61	4.2834
61.26	4.3053
61.90	4.3303
62.56	4.3555
63.21	4.3788
63.85	4.4018
64.51	4.4245
65.16	4.4496
65.81	4.4745
66.46	4.4987
67.11	4.5218
67.76	4.5450
68.41	4.5705
69.06	4.5940
69.72	4.6214
70.37	4.6466
71.01	4.6718
71.66	4.6951
72.31	4.7202
72.97	4.7447
73.62	4.7704
74.27	4.7966
74.92	4.8211
75.57	4.8464
76.22	4.8712
76.87	4.8966
77.53	4.9205
78.17	4.9473
78.83	4.9747
79.48	5.0002
80.13	5.0254
80.78	5.0532
81.43	5.0836
82.07	5.1126
82.72	5.1347
83.38	5.1595
84.02	5.1838
84.67	5.2105
85.32	5.2390
85.97	5.2670
86.62	5.2940
87.26	5.3228
87.91	5.3515
88.56	5.3809
89.21	5.4078
89.86	5.4372
90.50	5.4644
91.15	5.4940
91.80	5.5245
92.45	5.5544
93.10	5.5846
93.75	5.6150
94.40	5.6430
95.05	5.6747
95.70	5.7039
96.34	5.7345
97.00	5.7613
97.64	5.7962
98.30	5.8299
98.94	5.8621
99.59	5.8928
100.25	5.9235
100.90	5.9561
101.55	5.9888
102.19	6.0218
102.85	6.0537
103.50	6.0853
104.14	6.1183
104.79	6.1517
105.45	6.1845
106.09	6.2186
106.74	6.2541
107.39	6.2877
108.04	6.3178
108.69	6.3526
109.34	6.3887
109.99	6.4234
110.64	6.4589
111.29	6.4947
111.94	6.5308
112.59	6.5661
113.24	6.6011
113.89	6.6376
114.54	6.6735
115.19	6.7117
115.84	6.7509
116.50	6.7856
117.14	6.8226
117.79	6.8641
118.44	6.9020
119.09	6.9376
119.75	6.9756
120.39	7.0174
121.04	7.0590
121.69	7.0966
122.34	7.1389
123.00	7.1761
123.64	7.2170
124.29	7.2572
124.94	7.3005
125.59	7.3418
126.24	7.3817
126.89	7.4231
127.54	7.4666
128.19	7.5090
128.84	7.5552
129.49	7.5984
130.14	7.6372
130.79	7.6828
131.44	7.7290
132.09	7.7728
132.75	7.8166
133.39	7.8641
134.05	7.9117
134.69	7.9596
135.34	8.0069
136.00	8.0528
136.65	8.1026
137.30	8.1527
137.94	8.2018
138.60	8.2497
139.25	8.3028
139.90	8.3557
140.55	8.4055
141.20	8.4566
141.85	8.5103
142.50	8.5649
143.15	8.6207
143.80	8.6779
144.45	8.7374
145.10	8.8004
145.75	8.8615
146.39	8.9237
147.05	8.9863
147.70	9.0537
148.35	9.1281
149.00	9.2005
149.64	9.2667
150.29	9.3319
150.94	9.3863
151.59	9.4437
152.23	9.4955
152.88	9.5620
153.53	9.6377
154.18	9.7221
154.83	9.8150
155.47	9.9107
156.13	10.0089
156.78	10.1156
157.43	10.2326
158.08	10.3470
158.72	10.4743
159.37	10.6148
160.03	10.7652
160.67	10.9336
161.32	11.1156
161.97	11.3274
162.62	11.5732
163.27	11.8303
163.92	12.1007
164.56	12.3810
165.21	12.6565
165.86	12.9122
166.51	13.1395
167.16	13.3180
167.81	13.4514
168.46	13.5252
169.11	13.5127
169.76	13.3825
170.41	13.0994
171.06	12.6345
171.71	12.0141
172.36	11.3850
173.01	10.9287
173.66	10.6834
174.31	10.5576
174.96	10.5203
175.61	10.5256
176.26	10.5548
176.91	10.5960
177.56	10.6389
178.21	10.6868
178.86	10.7391
179.51	10.7864
180.15	10.8361
180.80	10.8890
181.45	10.9394
182.10	10.9944
182.75	11.0475
183.40	11.0982
184.05	11.1469
184.70	11.1977
185.35	11.2500
186.00	11.3022
186.65	11.3530
187.30	11.4058
187.95	11.4595
188.60	11.5080
189.25	11.5611
189.90	11.6196
190.55	11.6733
191.20	11.7254
191.85	11.7797
192.50	11.8333
193.15	11.8875
193.80	11.9421
194.45	11.9955
195.10	12.0499
195.76	12.1062
196.41	12.1608
197.06	12.2165
197.71	12.2737
198.35	12.3289
199.01	12.3844
199.65	12.4373
200.12	12.4755